File: potentiostat_test/cv_copper_test_1.txt
Scan;Index;Time (s);WE(1).Potential (V);WE(1).Current (A);Current range
1;1;0,610211998459363;0,0035736083984375;-1,220703125E-06;1 µA
1;13;2,07421199476312;0,0328857421875;-3,72314453125E-07;1 µA
1;25;3,53821199106687;0,057891845703125;-2,3492431640625E-07;1 µA
1;37;5,00221198737063;0,0887451171875;-1,58447265625E-07;1 µA
1;49;6,46621198367438;0,116485595703125;-1,08795166015625E-07;1 µA
1;61;7,93021197997814;0,14349365234375;-7,38525390625E-08;1 µA
1;73;9,39421197628189;0,171966552734375;-4,9072265625E-08;1 µA
1;85;10,8582119725857;0,20074462890625;-3,009033203125E-08;1 µA
1;97;12,3222119688894;0,23028564453125;-1,1474609375E-08;1 µA
1;109;13,7862119651932;0,219482421875;-4,7149658203125E-08;1 µA
1;121;15,2502119614969;0,188751220703125;-6,9061279296875E-08;1 µA
1;133;16,7142119578007;0,1561279296875;-9,442138671875E-08;1 µA
1;145;18,1782119541044;0,126800537109375;-1,24298095703125E-07;1 µA
1;157;19,6422119504082;0,096649169921875;-1,640625E-07;1 µA
1;169;21,1062119467119;0,0697021484375;-2,1661376953125E-07;1 µA
1;181;22,5702119430157;0,0403472900390625;-2,85491943359375E-07;1 µA
1;193;24,0342119393194;0,007122802734375;-3,7384033203125E-07;1 µA
1;205;25,4982119356232;-0,0217071533203125;-4,840087890625E-07;1 µA
1;217;26,962211931927;-0,050994873046875;-6,3201904296875E-07;1 µA
1;229;28,4262119282307;-0,08209228515625;-8,1390380859375E-07;1 µA
1;241;29,8902119245345;-0,1083984375;-9,9456787109375E-07;1 µA
1;253;31,3542119208382;-0,1414794921875;-1,1676025390625E-06;1 µA
1;265;32,818211917142;-0,16815185546875;-1,322021484375E-06;1 µA
1;277;34,2822119134457;-0,198516845703125;-1,45660400390625E-06;1 µA
1;289;35,7462119097495;-0,228546142578125;-1,57196044921875E-06;1 µA
1;301;37,2102119060532;-0,2587890625;-2,30316162109375E-06;1 µA
1;313;38,674211902357;-0,230560302734375;-1,8768310546875E-06;1 µA
1;325;40,1382118986608;-0,19952392578125;-1,3525390625E-06;1 µA
1;337;41,6022118949645;-0,172607421875;-9,613037109375E-07;1 µA
1;349;43,0662118912683;-0,1424560546875;-7,6019287109375E-07;1 µA
1;361;44,530211887572;-0,11419677734375;-5,3802490234375E-07;1 µA
1;373;45,9942118838758;-0,086883544921875;-2,53326416015625E-07;1 µA
1;385;47,4582118801795;-0,05767822265625;-1,34368896484375E-07;1 µA
1;397;48,9222118764833;-0,0301177978515625;-1,34613037109375E-07;1 µA
2;409;50,386211872787;-0,00140380859375;-1,12548828125E-07;1 µA
2;421;51,8502118690908;0,028875732421875;-6,2164306640625E-08;1 µA
2;433;53,3142118653946;0,054779052734375;-3,21044921875E-08;1 µA
2;445;54,7782118616983;0,084197998046875;-1,3397216796875E-08;1 µA
2;457;56,2422118580021;0,11407470703125;1,556396484375E-09;1 µA
2;469;57,7062118543058;0,140838623046875;7,415771484375E-09;1 µA
2;481;59,1702118506096;0,169342041015625;1,666259765625E-08;1 µA
2;493;60,6342118469133;0,19873046875;3,5797119140625E-08;1 µA
2;505;62,0982118432171;0,22613525390625;6,3934326171875E-08;1 µA
2;517;63,5622118395208;0,21826171875;1,9866943359375E-08;1 µA
2;529;65,0262118358246;0,1884765625;-2,4322509765625E-08;1 µA
2;541;66,4902118321284;0,159332275390625;-5,9417724609375E-08;1 µA
2;553;67,9542118284321;0,129547119140625;-9,2864990234375E-08;1 µA
2;565;69,4182118247359;0,0989990234375;-1,29974365234375E-07;1 µA
2;577;70,8822118210396;0,0709228515625;-1,7596435546875E-07;1 µA
2;589;72,3462118173434;0,0395751953125;-2,349853515625E-07;1 µA
2;601;73,8102118136471;0,009979248046875;-3,1072998046875E-07;1 µA
2;613;75,2742118099509;-0,0171630859375;-4,2144775390625E-07;1 µA
2;625;76,7382118062546;-0,0460479736328125;-5,5755615234375E-07;1 µA
2;637;78,2022118025584;-0,078887939453125;-7,1441650390625E-07;1 µA
2;649;79,6662117988622;-0,1092529296875;-8,7005615234375E-07;1 µA
2;661;81,1302117951659;-0,136322021484375;-1,01776123046875E-06;1 µA
2;673;82,5942117914697;-0,16717529296875;-1,1541748046875E-06;1 µA
2;685;84,0582117877734;-0,195037841796875;-1,27655029296875E-06;1 µA
2;697;85,5222117840772;-0,22454833984375;-1,3946533203125E-06;1 µA
2;709;86,9862117803809;-0,254913330078125;-2,3260498046875E-06;1 µA
2;721;88,4502117766847;-0,234344482421875;-1,9305419921875E-06;1 µA
2;733;89,9142117729884;-0,205413818359375;-1,35833740234375E-06;1 µA
2;745;91,3782117692922;-0,173614501953125;-9,2010498046875E-07;1 µA
2;757;92,8422117655959;-0,148773193359375;-7,012939453125E-07;1 µA
2;769;94,3062117618997;-0,11651611328125;-4,98046875E-07;1 µA
2;781;95,7702117582035;-0,088836669921875;-1,8365478515625E-07;1 µA
2;793;97,2342117545072;-0,06317138671875;-2,1148681640625E-08;1 µA
2;805;98,698211750811;-0,032806396484375;-4,87060546875E-08;1 µA
2;817;100,162211747115;-0,00249633789062501;-6,365966796875E-08;1 µA
3;829;101,626211743418;0,0255615234375;-2,4261474609375E-08;1 µA
3;841;103,090211739722;0,05316162109375;2,252197265625E-08;1 µA
3;853;104,554211736026;0,08331298828125;2,9022216796875E-08;1 µA
3;865;106,01821173233;0,108154296875;3,1219482421875E-08;1 µA
3;877;107,482211728634;0,137542724609375;2,8472900390625E-08;1 µA
3;889;108,946211724937;0,165252685546875;2,960205078125E-08;1 µA
3;901;110,410211721241;0,1942138671875;4,534912109375E-08;1 µA
3;913;111,874211717545;0,22613525390625;7,000732421875E-08;1 µA
3;925;113,338211713849;0,226104736328125;3,765869140625E-08;1 µA
3;937;114,802211710152;0,19329833984375;-1,104736328125E-08;1 µA
3;949;116,266211706456;0,164520263671875;-4,8431396484375E-08;1 µA
3;961;117,73021170276;0,13720703125;-8,160400390625E-08;1 µA
3;973;119,194211699064;0,104034423828125;-1,171875E-07;1 µA
3;985;120,658211695367;0,07745361328125;-1,6033935546875E-07;1 µA
3;997;122,122211691671;0,0478546142578125;-2,14996337890625E-07;1 µA
3;1009;123,586211687975;0,0174713134765625;-2,85888671875E-07;1 µA
3;1021;125,050211684279;-0,0129241943359375;-3,9215087890625E-07;1 µA
3;1033;126,514211680582;-0,0449462890625;-5,1971435546875E-07;1 µA
3;1045;127,978211676886;-0,074310302734375;-6,695556640625E-07;1 µA
3;1057;129,44221167319;-0,100830078125;-8,2122802734375E-07;1 µA
3;1069;130,906211669494;-0,134002685546875;-9,6527099609375E-07;1 µA
3;1081;132,370211665797;-0,161529541015625;-1,0980224609375E-06;1 µA
3;1093;133,834211662101;-0,19036865234375;-1,2188720703125E-06;1 µA
3;1105;135,298211658405;-0,2213134765625;-1,33453369140625E-06;1 µA
3;1117;136,762211654709;-0,250885009765625;-2,17437744140625E-06;1 µA
3;1129;138,226211651012;-0,2373046875;-2,03643798828125E-06;1 µA
3;1141;139,690211647316;-0,210357666015625;-1,439208984375E-06;1 µA
3;1153;141,15421164362;-0,17889404296875;-9,5611572265625E-07;1 µA
3;1165;142,618211639924;-0,15130615234375;-7,0465087890625E-07;1 µA
3;1177;144,082211636227;-0,1239013671875;-5,126953125E-07;1 µA
3;1189;145,546211632531;-0,09295654296875;-1,92657470703125E-07;1 µA
3;1201;147,010211628835;-0,065338134765625;1,2939453125E-08;1 µA
3;1213;148,474211625139;-0,038525390625;-1,1627197265625E-08;1 µA
3;1225;149,938211621442;-0,01055908203125;-4,40673828125E-08;1 µA
4;1237;151,402211617746;0,018084716796875;-1,715087890625E-08;1 µA
4;1249;152,86621161405;0,0486419677734375;3,5736083984375E-08;1 µA
4;1261;154,330211610354;0,078582763671875;4,7760009765625E-08;1 µA
4;1273;155,794211606657;0,104095458984375;4,2083740234375E-08;1 µA
4;1285;157,258211602961;0,135009765625;4,034423828125E-08;1 µA
4;1297;158,722211599265;0,161285400390625;3,4759521484375E-08;1 µA
4;1309;160,186211595569;0,1925048828125;4,60205078125E-08;1 µA
4;1321;161,650211591872;0,221466064453125;6,976318359375E-08;1 µA
4;1333;163,114211588176;0,227874755859375;5,224609375E-08;1 µA
4;1345;164,57821158448;0,201019287109375;-1,068115234375E-09;1 µA
4;1357;166,042211580784;0,169403076171875;-3,961181640625E-08;1 µA
4;1369;167,506211577087;0,13983154296875;-7,31201171875E-08;1 µA
4;1381;168,970211573391;0,11212158203125;-1,0748291015625E-07;1 µA
4;1393;170,434211569695;0,0810546875;-1,4801025390625E-07;1 µA
4;1405;171,898211565999;0,05108642578125;-1,9927978515625E-07;1 µA
4;1417;173,362211562302;0,021514892578125;-2,66571044921875E-07;1 µA
4;1429;174,826211558606;-0,010186767578125;-3,6590576171875E-07;1 µA
4;1441;176,29021155491;-0,0394012451171875;-4,888916015625E-07;1 µA
4;1453;177,754211551214;-0,06964111328125;-6,34765625E-07;1 µA
4;1465;179,218211547518;-0,0985107421875;-7,8399658203125E-07;1 µA
4;1477;180,682211543821;-0,12579345703125;-9,28955078125E-07;1 µA
4;1489;182,146211540125;-0,156829833984375;-1,06201171875E-06;1 µA
4;1501;183,610211536429;-0,18890380859375;-1,18194580078125E-06;1 µA
4;1513;185,074211532733;-0,2161865234375;-1,2939453125E-06;1 µA
4;1525;186,538211529036;-0,2470703125;-1,99371337890625E-06;1 µA
4;1537;188,00221152534;-0,239410400390625;-2,15057373046875E-06;1 µA
4;1549;189,466211521644;-0,214691162109375;-1,52587890625E-06;1 µA
4;1561;190,930211517948;-0,182769775390625;-1,00341796875E-06;1 µA
4;1573;192,394211514251;-0,15765380859375;-7,1502685546875E-07;1 µA
4;1585;193,858211510555;-0,12860107421875;-5,3375244140625E-07;1 µA
4;1597;195,322211506859;-0,0997314453125;-2,13653564453125E-07;1 µA
4;1609;196,786211503163;-0,071075439453125;2,8778076171875E-08;1 µA
4;1621;198,250211499466;-0,041143798828125;1,6143798828125E-08;1 µA
4;1633;199,71421149577;-0,012713623046875;-2,5726318359375E-08;1 µA
5;1645;201,178211492074;0,01531982421875;-1,06201171875E-08;1 µA
5;1657;202,642211488378;0,042279052734375;4,1717529296875E-08;1 µA
5;1669;204,106211484681;0,072967529296875;5,8837890625E-08;1 µA
5;1681;205,570211480985;0,103057861328125;4,9346923828125E-08;1 µA
5;1693;207,034211477289;0,13043212890625;4,522705078125E-08;1 µA
5;1705;208,498211473593;0,158843994140625;3,7200927734375E-08;1 µA
5;1717;209,962211469896;0,185028076171875;4,638671875E-08;1 µA
5;1729;211,4262114662;0,21466064453125;6,7291259765625E-08;1 µA
5;1741;212,890211462504;0,23236083984375;6,2347412109375E-08;1 µA
5;1753;214,354211458808;0,204437255859375;6,256103515625E-09;1 µA
5;1765;215,818211455111;0,17205810546875;-3,3233642578125E-08;1 µA
5;1777;217,282211451415;0,141998291015625;-6,689453125E-08;1 µA
5;1789;218,746211447719;0,1156005859375;-1,0040283203125E-07;1 µA
5;1801;220,210211444023;0,08294677734375;-1,3885498046875E-07;1 µA
5;1813;221,674211440326;0,054901123046875;-1,8780517578125E-07;1 µA
5;1825;223,13821143663;0,02510986328125;-2,5152587890625E-07;1 µA
5;1837;224,602211432934;-0,00663146972656251;-3,4515380859375E-07;1 µA
5;1849;226,066211429238;-0,036761474609375;-4,6661376953125E-07;1 µA
5;1861;227,530211425541;-0,0628662109375;-6,085205078125E-07;1 µA
5;1873;228,994211421845;-0,093994140625;-7,58056640625E-07;1 µA
5;1885;230,458211418149;-0,122314453125;-9,0118408203125E-07;1 µA
5;1897;231,922211414453;-0,15472412109375;-1,03302001953125E-06;1 µA
5;1909;233,386211410756;-0,18304443359375;-1,156005859375E-06;1 µA
5;1921;234,85021140706;-0,212371826171875;-1,2646484375E-06;1 µA
5;1933;236,314211403364;-0,242462158203125;-1,8341064453125E-06;1 µA
5;1945;237,778211399668;-0,246429443359375;-2,26654052734375E-06;1 µA
5;1957;239,242211395971;-0,21795654296875;-1,6156005859375E-06;1 µA
5;1969;240,706211392275;-0,188720703125;-1,05712890625E-06;1 µA
5;1981;242,170211388579;-0,1597900390625;-7,26318359375E-07;1 µA
5;1993;243,634211384883;-0,13238525390625;-5,4931640625E-07;1 µA
5;2005;245,098211381187;-0,10382080078125;-2,33428955078125E-07;1 µA
5;2017;246,56221137749;-0,073638916015625;4,1839599609375E-08;1 µA
5;2029;248,026211373794;-0,04725341796875;4,315185546875E-08;1 µA
5;2041;249,490211370098;-0,015045166015625;-7,38525390625E-09;1 µA
6;2053;250,954211366402;0,012567138671875;-2,62451171875E-09;1 µA
6;2065;252,418211362705;0,0392608642578125;4,8370361328125E-08;1 µA
6;2077;253,882211359009;0,067718505859375;7,159423828125E-08;1 µA
6;2089;255,346211355313;0,09912109375;6,1187744140625E-08;1 µA
6;2101;256,810211351617;0,12774658203125;5,2032470703125E-08;1 µA
6;2113;258,27421134792;0,15545654296875;4,2022705078125E-08;1 µA
6;2125;259,738211344224;0,181793212890625;4,7943115234375E-08;1 µA
6;2137;261,202211340528;0,21337890625;6,6162109375E-08;1 µA
6;2149;262,666211336832;0,23822021484375;7,7392578125E-08;1 µA
6;2161;264,130211333135;0,206207275390625;1,6021728515625E-08;1 µA
6;2173;265,594211329439;0,178680419921875;-2,4627685546875E-08;1 µA
6;2185;267,058211325743;0,150390625;-5,8868408203125E-08;1 µA
6;2197;268,522211322047;0,11737060546875;-9,1094970703125E-08;1 µA
6;2209;269,98621131835;0,088287353515625;-1,2860107421875E-07;1 µA
6;2221;271,450211314654;0,057464599609375;-1,74957275390625E-07;1 µA
6;2233;272,914211310958;0,0283233642578125;-2,3565673828125E-07;1 µA
6;2245;274,378211307262;-0,00202331542968751;-3,2135009765625E-07;1 µA
6;2257;275,842211303565;-0,03099365234375;-4,3853759765625E-07;1 µA
6;2269;277,306211299869;-0,060150146484375;-5,7647705078125E-07;1 µA
6;2281;278,770211296173;-0,08935546875;-7,232666015625E-07;1 µA
6;2293;280,234211292477;-0,1181640625;-8,6578369140625E-07;1 µA
6;2305;281,69821128878;-0,14752197265625;-1,00006103515625E-06;1 µA
6;2317;283,162211285084;-0,177825927734375;-1,121826171875E-06;1 µA
6;2329;284,626211281388;-0,20941162109375;-1,2298583984375E-06;1 µA
6;2341;286,090211277692;-0,237579345703125;-1,58782958984375E-06;1 µA
6;2353;287,554211273995;-0,249267578125;-2,3565673828125E-06;1 µA
6;2365;289,018211270299;-0,22119140625;-1,69189453125E-06;1 µA
6;2377;290,482211266603;-0,193023681640625;-1,10382080078125E-06;1 µA
6;2389;291,946211262907;-0,163055419921875;-7,40966796875E-07;1 µA
6;2401;293,41021125921;-0,1356201171875;-5,6549072265625E-07;1 µA
6;2413;294,874211255514;-0,10748291015625;-2,57598876953125E-07;1 µA
6;2425;296,338211251818;-0,07891845703125;3,582763671875E-08;1 µA
6;2437;297,802211248122;-0,0502777099609375;5,267333984375E-08;1 µA
6;2449;299,266211244425;-0,0180938720703125;9,1552734375E-10;1 µA
7;2461;300,730211240729;0,0071380615234375;1,03759765625E-09;1 µA
7;2473;302,194211237033;0,038641357421875;5,1544189453125E-08;1 µA
7;2485;303,658211233337;0,0638427734375;7,940673828125E-08;1 µA
7;2497;305,12221122964;0,096160888671875;6,4788818359375E-08;1 µA
7;2509;306,586211225944;0,1209716796875;5,255126953125E-08;1 µA
7;2521;308,050211222248;0,15289306640625;4,16259765625E-08;1 µA
7;2533;309,514211218552;0,179229736328125;4,6630859375E-08;1 µA
7;2545;310,978211214855;0,20745849609375;6,4208984375E-08;1 µA
7;2557;312,442211211159;0,238311767578125;9,4207763671875E-08;1 µA
7;2569;313,906211207463;0,21038818359375;2,2125244140625E-08;1 µA
7;2581;315,370211203767;0,182159423828125;-1,934814453125E-08;1 µA
7;2593;316,834211200071;0,149993896484375;-5,3253173828125E-08;1 µA
7;2605;318,298211196374;0,120880126953125;-8,5723876953125E-08;1 µA
7;2617;319,762211192678;0,09130859375;-1,2176513671875E-07;1 µA
7;2629;321,226211188982;0,06048583984375;-1,66839599609375E-07;1 µA
7;2641;322,690211185286;0,031298828125;-2,24884033203125E-07;1 µA
7;2653;324,154211181589;0,00208435058593751;-3,06884765625E-07;1 µA
7;2665;325,618211177893;-0,028240966796875;-4,217529296875E-07;1 µA
7;2677;327,082211174197;-0,05609130859375;-5,56640625E-07;1 µA
7;2689;328,546211170501;-0,08477783203125;-7,0343017578125E-07;1 µA
7;2701;330,010211166804;-0,11676025390625;-8,45947265625E-07;1 µA
7;2713;331,474211163108;-0,146636962890625;-9,80224609375E-07;1 µA
7;2725;332,938211159412;-0,1763916015625;-1,1029052734375E-06;1 µA
7;2737;334,402211155716;-0,20562744140625;-1,2127685546875E-06;1 µA
7;2749;335,866211152019;-0,233551025390625;-1,473388671875E-06;1 µA
7;2761;337,330211148323;-0,25396728515625;-2,493896484375E-06;1 µA
7;2773;338,794211144627;-0,224151611328125;-1,80755615234375E-06;1 µA
7;2785;340,258211140931;-0,197540283203125;-1,18255615234375E-06;1 µA
7;2797;341,722211137234;-0,169036865234375;-7,7056884765625E-07;1 µA
7;2809;343,186211133538;-0,1390380859375;-5,82275390625E-07;1 µA
7;2821;344,650211129842;-0,11199951171875;-2,8900146484375E-07;1 µA
7;2833;346,114211126146;-0,080963134765625;3,6590576171875E-08;1 µA
7;2845;347,578211122449;-0,05145263671875;8,7982177734375E-08;1 µA
7;2857;349,042211118753;-0,023046875;2,6458740234375E-08;1 µA
8;2869;350,506211115057;0,00220947265625;1,3427734375E-08;1 µA
8;2881;351,970211111361;0,0342559814453125;5,82275390625E-08;1 µA
8;2893;353,434211107664;0,060577392578125;9,2498779296875E-08;1 µA
8;2905;354,898211103968;0,088226318359375;8,111572265625E-08;1 µA
8;2917;356,362211100272;0,116912841796875;6,33544921875E-08;1 µA
8;2929;357,826211096576;0,147491455078125;4,864501953125E-08;1 µA
8;2941;359,290211092879;0,176666259765625;4,840087890625E-08;1 µA
8;2953;360,754211089183;0,205413818359375;6,3232421875E-08;1 µA
8;2965;362,218211085487;0,232574462890625;9,136962890625E-08;1 µA
8;2977;363,682211081791;0,214996337890625;3,38134765625E-08;1 µA
8;2989;365,146211078094;0,1884765625;-1,0986328125E-08;1 µA
8;3001;366,610211074398;0,156585693359375;-4,52880859375E-08;1 µA
8;3013;368,074211070702;0,1278076171875;-7,6873779296875E-08;1 µA
8;3025;369,538211067006;0,09814453125;-1,112060546875E-07;1 µA
8;3037;371,002211063309;0,069488525390625;-1,54022216796875E-07;1 µA
8;3049;372,466211059613;0,03787841796875;-2,08892822265625E-07;1 µA
8;3061;373,930211055917;0,00671997070312499;-2,845458984375E-07;1 µA
8;3073;375,394211052221;-0,0209228515625;-3,9337158203125E-07;1 µA
8;3085;376,858211048524;-0,05316162109375;-5,23681640625E-07;1 µA
8;3097;378,322211044828;-0,081634521484375;-6,6741943359375E-07;1 µA
8;3109;379,786211041132;-0,109039306640625;-8,099365234375E-07;1 µA
8;3121;381,250211037436;-0,138885498046875;-9,43603515625E-07;1 µA
8;3133;382,71421103374;-0,1689453125;-1,065673828125E-06;1 µA
8;3145;384,178211030043;-0,1995849609375;-1,1785888671875E-06;1 µA
8;3157;385,642211026347;-0,231658935546875;-1,3323974609375E-06;1 µA
8;3169;387,106211022651;-0,2554931640625;-2,5872802734375E-06;1 µA
8;3181;388,570211018955;-0,22796630859375;-1,9146728515625E-06;1 µA
8;3193;390,034211015258;-0,197998046875;-1,25946044921875E-06;1 µA
8;3205;391,498211011562;-0,172515869140625;-7,9925537109375E-07;1 µA
8;3217;392,962211007866;-0,14208984375;-5,9906005859375E-07;1 µA
8;3229;394,42621100417;-0,112548828125;-3,2928466796875E-07;1 µA
8;3241;395,890211000473;-0,0859375;1,18408203125E-08;1 µA
8;3253;397,354210996777;-0,0589599609375;9,7320556640625E-08;1 µA
8;3265;398,818210993081;-0,0266815185546875;3,77197265625E-08;1 µA
8;3277;400,282210989385;-0,00120849609375;1,6387939453125E-08;1 µA
9;3289;401,746210985688;0,02955322265625;5,5023193359375E-08;1 µA
9;3301;403,210210981992;0,057708740234375;9,515380859375E-08;1 µA
9;3313;404,674210978296;0,083892822265625;8,6883544921875E-08;1 µA
9;3325;406,1382109746;0,114776611328125;6,8206787109375E-08;1 µA
9;3337;407,602210970903;0,142486572265625;5,157470703125E-08;1 µA
9;3349;409,066210967207;0,169769287109375;4,9072265625E-08;1 µA
9;3361;410,530210963511;0,199462890625;6,16455078125E-08;1 µA
9;3373;411,994210959815;0,22772216796875;8,65478515625E-08;1 µA
9;3385;413,458210956118;0,219757080078125;4,0374755859375E-08;1 µA
9;3397;414,922210952422;0,191375732421875;-5,43212890625E-09;1 µA
9;3409;416,386210948726;0,158111572265625;-3,948974609375E-08;1 µA
9;3421;417,85021094503;0,131988525390625;-7,1136474609375E-08;1 µA
9;3433;419,314210941333;0,10150146484375;-1,053466796875E-07;1 µA
9;3445;420,778210937637;0,071258544921875;-1,45843505859375E-07;1 µA
9;3457;422,242210933941;0,0393798828125;-1,990966796875E-07;1 µA
9;3469;423,706210930245;0,012506103515625;-2,71514892578125E-07;1 µA
9;3481;425,170210926548;-0,0202392578125;-3,7689208984375E-07;1 µA
9;3493;426,634210922852;-0,048773193359375;-5,04150390625E-07;1 µA
9;3505;428,098210919156;-0,07867431640625;-6,451416015625E-07;1 µA
9;3517;429,56221091546;-0,1070556640625;-7,8704833984375E-07;1 µA
9;3529;431,026210911763;-0,135772705078125;-9,2041015625E-07;1 µA
9;3541;432,490210908067;-0,1654052734375;-1,04400634765625E-06;1 µA
9;3553;433,954210904371;-0,1951904296875;-1,1553955078125E-06;1 µA
9;3565;435,418210900675;-0,2247314453125;-1,28875732421875E-06;1 µA
9;3577;436,882210896978;-0,254486083984375;-2,572021484375E-06;1 µA
9;3589;438,346210893282;-0,23260498046875;-2,025146484375E-06;1 µA
9;3601;439,810210889586;-0,203369140625;-1,34033203125E-06;1 µA
9;3613;441,27421088589;-0,17645263671875;-8,3648681640625E-07;1 µA
9;3625;442,738210882193;-0,1468505859375;-6,146240234375E-07;1 µA
9;3637;444,202210878497;-0,117279052734375;-3,6285400390625E-07;1 µA
9;3649;445,666210874801;-0,088409423828125;-6,28662109375E-09;1 µA
9;3661;447,130210871105;-0,06005859375;1,19903564453125E-07;1 µA
9;3673;448,594210867408;-0,0306060791015625;5,7037353515625E-08;1 µA
9;3685;450,058210863712;-0,0021392822265625;2,7374267578125E-08;1 µA
10;3697;451,522210860016;0,02418212890625;5,9722900390625E-08;1 µA
10;3709;452,98621085632;0,0533447265625;1,01806640625E-07;1 µA
10;3721;454,450210852624;0,080291748046875;1,0076904296875E-07;1 µA
10;3733;455,914210848927;0,1121826171875;7,9376220703125E-08;1 µA
10;3745;457,378210845231;0,137603759765625;5,9173583984375E-08;1 µA
10;3757;458,842210841535;0,169097900390625;5,108642578125E-08;1 µA
10;3769;460,306210837839;0,194488525390625;6,182861328125E-08;1 µA
10;3781;461,770210834142;0,222808837890625;8,4869384765625E-08;1 µA
10;3793;463,234210830446;0,223480224609375;4,888916015625E-08;1 µA
10;3805;464,69821082675;0,193603515625;1,52587890625E-09;1 µA
10;3817;466,162210823054;0,16387939453125;-3,424072265625E-08;1 µA
10;3829;467,626210819357;0,13470458984375;-6,5093994140625E-08;1 µA
10;3841;469,090210815661;0,102569580078125;-9,8358154296875E-08;1 µA
10;3853;470,554210811965;0,0723876953125;-1,37481689453125E-07;1 µA
10;3865;472,018210808269;0,0426727294921875;-1,88323974609375E-07;1 µA
10;3877;473,482210804572;0,016448974609375;-2,5799560546875E-07;1 µA
10;3889;474,946210800876;-0,0157745361328125;-3,5797119140625E-07;1 µA
10;3901;476,41021079718;-0,0434295654296875;-4,82177734375E-07;1 µA
10;3913;477,874210793484;-0,076080322265625;-6,195068359375E-07;1 µA
10;3925;479,338210789787;-0,104705810546875;-7,611083984375E-07;1 µA
10;3937;480,802210786091;-0,13299560546875;-8,9447021484375E-07;1 µA
10;3949;482,266210782395;-0,16510009765625;-1,01715087890625E-06;1 µA
10;3961;483,730210778699;-0,192596435546875;-1,13006591796875E-06;1 µA
10;3973;485,194210775002;-0,224853515625;-1,2518310546875E-06;1 µA
10;3985;486,658210771306;-0,253936767578125;-2,4371337890625E-06;1 µA
10;3997;488,12221076761;-0,235992431640625;-2,11822509765625E-06;1 µA
10;4009;489,586210763914;-0,207794189453125;-1,409912109375E-06;1 µA
10;4021;491,050210760217;-0,17718505859375;-8,6944580078125E-07;1 µA
10;4033;492,514210756521;-0,148895263671875;-6,219482421875E-07;1 µA
10;4045;493,978210752825;-0,12127685546875;-3,8848876953125E-07;1 µA
10;4057;495,442210749129;-0,094451904296875;-2,4932861328125E-08;1 µA
10;4069;496,906210745432;-0,063995361328125;1,34429931640625E-07;1 µA
10;4081;498,370210741736;-0,0353179931640625;6,9244384765625E-08;1 µA
10;4093;499,83421073804;-0,0084381103515625;3,472900390625E-08;1 µA
11;4105;501,298210734344;0,0222900390625;6,201171875E-08;1 µA
11;4117;502,762210730647;0,0514984130859375;1,06597900390625E-07;1 µA
11;4129;504,226210726951;0,080291748046875;1,08123779296875E-07;1 µA
11;4141;505,690210723255;0,108367919921875;8,5601806640625E-08;1 µA
11;4153;507,154210719559;0,1373291015625;6,4544677734375E-08;1 µA
11;4165;508,618210715862;0,1650390625;5,389404296875E-08;1 µA
11;4177;510,082210712166;0,193450927734375;6,21337890625E-08;1 µA
11;4189;511,54621070847;0,220184326171875;8,3526611328125E-08;1 µA
11;4201;513,010210704774;0,228790283203125;5,902099609375E-08;1 µA
11;4213;514,474210701077;0,199371337890625;9,1552734375E-09;1 µA
11;4225;515,938210697381;0,169097900390625;-2,6885986328125E-08;1 µA
11;4237;517,402210693685;0,13897705078125;-5,7891845703125E-08;1 µA
11;4249;518,866210689989;0,107666015625;-9,0423583984375E-08;1 µA
11;4261;520,330210686293;0,076812744140625;-1,28082275390625E-07;1 µA
11;4273;521,794210682596;0,049285888671875;-1,77276611328125E-07;1 µA
11;4285;523,2582106789;0,01737060546875;-2,43560791015625E-07;1 µA
11;4297;524,722210675204;-0,01180419921875;-3,375244140625E-07;1 µA
11;4309;526,186210671508;-0,03863525390625;-4,5867919921875E-07;1 µA
11;4321;527,650210667811;-0,068695068359375;-5,9326171875E-07;1 µA
11;4333;529,114210664115;-0,099761962890625;-7,3333740234375E-07;1 µA
11;4345;530,578210660419;-0,131500244140625;-8,6669921875E-07;1 µA
11;4357;532,042210656723;-0,161224365234375;-9,8968505859375E-07;1 µA
11;4369;533,506210653026;-0,190948486328125;-1,10321044921875E-06;1 µA
11;4381;534,97021064933;-0,219818115234375;-1,217041015625E-06;1 µA
11;4393;536,434210645634;-0,24658203125;-2,24884033203125E-06;1 µA
11;4405;537,898210641938;-0,23956298828125;-2,23358154296875E-06;1 µA
11;4417;539,362210638241;-0,2099609375;-1,50115966796875E-06;1 µA
11;4429;540,826210634545;-0,180694580078125;-9,2041015625E-07;1 µA
11;4441;542,290210630849;-0,15252685546875;-6,35986328125E-07;1 µA
11;4453;543,754210627153;-0,12713623046875;-4,2236328125E-07;1 µA
11;4465;545,218210623456;-0,0955810546875;-5,5816650390625E-08;1 µA
11;4477;546,68221061976;-0,06658935546875;1,4410400390625E-07;1 µA
11;4489;548,146210616064;-0,038092041015625;8,465576171875E-08;1 µA
11;4501;549,610210612368;-0,00927124023437501;4,23583984375E-08;1 µA
12;4513;551,074210608671;0,016058349609375;6,219482421875E-08;1 µA
12;4525;552,538210604975;0,04752197265625;1,09954833984375E-07;1 µA
12;4537;554,002210601279;0,073638916015625;1,165771484375E-07;1 µA
12;4549;555,466210597583;0,103363037109375;9,552001953125E-08;1 µA
12;4561;556,930210593886;0,132049560546875;7,171630859375E-08;1 µA
12;4573;558,39421059019;0,16070556640625;5,828857421875E-08;1 µA
12;4585;559,858210586494;0,1905517578125;6,4178466796875E-08;1 µA
12;4597;561,322210582798;0,218780517578125;8,2122802734375E-08;1 µA
12;4609;562,786210579101;0,230804443359375;7,23876953125E-08;1 µA
12;4621;564,250210575405;0,2010498046875;1,7913818359375E-08;1 µA
12;4633;565,714210571709;0,174346923828125;-2,001953125E-08;1 µA
12;4645;567,178210568013;0,144866943359375;-5,1605224609375E-08;1 µA
12;4657;568,642210564316;0,113372802734375;-8,270263671875E-08;1 µA
12;4669;570,10621056062;0,085205078125;-1,19720458984375E-07;1 µA
12;4681;571,570210556924;0,0552978515625;-1,6644287109375E-07;1 µA
12;4693;573,034210553228;0,024627685546875;-2,291259765625E-07;1 µA
12;4705;574,498210549531;-0,00538024902343751;-3,170166015625E-07;1 µA
12;4717;575,962210545835;-0,0374114990234375;-4,339599609375E-07;1 µA
12;4729;577,426210542139;-0,067169189453125;-5,6549072265625E-07;1 µA
12;4741;578,890210538443;-0,0966796875;-7,0343017578125E-07;1 µA
12;4753;580,354210534746;-0,125946044921875;-8,3648681640625E-07;1 µA
12;4765;581,81821053105;-0,155975341796875;-9,600830078125E-07;1 µA
12;4777;583,282210527354;-0,183502197265625;-1,0723876953125E-06;1 µA
12;4789;584,746210523658;-0,21356201171875;-1,18133544921875E-06;1 µA
12;4801;586,210210519961;-0,2440185546875;-1,9879150390625E-06;1 µA
12;4813;587,674210516265;-0,245941162109375;-2,37060546875E-06;1 µA
12;4825;589,138210512569;-0,21527099609375;-1,617431640625E-06;1 µA
12;4837;590,602210508873;-0,1881103515625;-9,9395751953125E-07;1 µA
12;4849;592,066210505177;-0,157867431640625;-6,585693359375E-07;1 µA
12;4861;593,53021050148;-0,130889892578125;-4,6417236328125E-07;1 µA
12;4873;594,994210497784;-0,100677490234375;-1,04736328125E-07;1 µA
12;4885;596,458210494088;-0,0726318359375;1,45843505859375E-07;1 µA
12;4897;597,922210490392;-0,044195556640625;1,01531982421875E-07;1 µA
12;4909;599,386210486695;-0,0143646240234375;5,029296875E-08;1 µA
13;4921;600,850210482999;0,0121063232421875;6,3262939453125E-08;1 µA
13;4933;602,314210479303;0,039300537109375;1,0748291015625E-07;1 µA
13;4945;603,778210475607;0,06866455078125;1,25457763671875E-07;1 µA
13;4957;605,24221047191;0,09619140625;1,04278564453125E-07;1 µA
13;4969;606,706210468214;0,12823486328125;8,1207275390625E-08;1 µA
13;4981;608,170210464518;0,15338134765625;6,43310546875E-08;1 µA
13;4993;609,634210460822;0,18255615234375;6,3873291015625E-08;1 µA
13;5005;611,098210457125;0,2113037109375;8,099365234375E-08;1 µA
13;5017;612,562210453429;0,23486328125;8,6151123046875E-08;1 µA
13;5029;614,026210449733;0,206817626953125;2,679443359375E-08;1 µA
13;5041;615,490210446037;0,17852783203125;-1,3275146484375E-08;1 µA
13;5053;616,95421044234;0,1453857421875;-4,5074462890625E-08;1 µA
13;5065;618,418210438644;0,118072509765625;-7,60498046875E-08;1 µA
13;5077;619,882210434948;0,086090087890625;-1,10992431640625E-07;1 µA
13;5089;621,346210431252;0,057403564453125;-1,5631103515625E-07;1 µA
13;5101;622,810210427555;0,0291748046875;-2,16400146484375E-07;1 µA
13;5113;624,274210423859;-0,00176086425781249;-2,99560546875E-07;1 µA
13;5125;625,738210420163;-0,030181884765625;-4,1229248046875E-07;1 µA
13;5137;627,202210416467;-0,06060791015625;-5,401611328125E-07;1 µA
13;5149;628,66621041277;-0,09033203125;-6,7626953125E-07;1 µA
13;5161;630,130210409074;-0,12042236328125;-8,087158203125E-07;1 µA
13;5173;631,594210405378;-0,152313232421875;-9,320068359375E-07;1 µA
13;5185;633,058210401682;-0,18023681640625;-1,04461669921875E-06;1 µA
13;5197;634,522210397985;-0,211151123046875;-1,15081787109375E-06;1 µA
13;5209;635,986210394289;-0,238037109375;-1,7535400390625E-06;1 µA
13;5221;637,450210390593;-0,245391845703125;-2,43804931640625E-06;1 µA
13;5233;638,914210386897;-0,216766357421875;-1,68060302734375E-06;1 µA
13;5245;640,3782103832;-0,1903076171875;-1,03424072265625E-06;1 µA
13;5257;641,842210379504;-0,16278076171875;-6,65283203125E-07;1 µA
13;5269;643,306210375808;-0,131805419921875;-4,803466796875E-07;1 µA
13;5281;644,770210372112;-0,1046142578125;-1,317138671875E-07;1 µA
13;5293;646,234210368415;-0,074951171875;1,363525390625E-07;1 µA
13;5305;647,698210364719;-0,048968505859375;1,03485107421875E-07;1 µA
13;5317;649,162210361023;-0,0177764892578125;5,1239013671875E-08;1 µA
14;5329;650,626210357327;0,01005859375;6,0638427734375E-08;1 µA
14;5341;652,09021035363;0,036602783203125;1,05438232421875E-07;1 µA
14;5353;653,554210349934;0,067840576171875;1,23992919921875E-07;1 µA
14;5365;655,018210346238;0,093597412109375;1,09039306640625E-07;1 µA
14;5377;656,482210342542;0,123504638671875;8,428955078125E-08;1 µA
14;5389;657,946210338846;0,151031494140625;6,4453125E-08;1 µA
14;5401;659,410210335149;0,1815185546875;6,5185546875E-08;1 µA
14;5413;660,874210331453;0,2093505859375;7,958984375E-08;1 µA
14;5425;662,338210327757;0,23980712890625;1,0931396484375E-07;1 µA
14;5437;663,802210324061;0,2122802734375;3,436279296875E-08;1 µA
14;5449;665,266210320364;0,179229736328125;-6,439208984375E-09;1 µA
14;5461;666,730210316668;0,1519775390625;-3,8848876953125E-08;1 µA
14;5473;668,194210312972;0,1201171875;-6,964111328125E-08;1 µA
14;5485;669,658210309276;0,09271240234375;-1,04949951171875E-07;1 µA
14;5497;671,122210305579;0,060272216796875;-1,4874267578125E-07;1 µA
14;5509;672,586210301883;0,03289794921875;-2,06024169921875E-07;1 µA
14;5521;674,050210298187;0,000543212890625006;-2,85797119140625E-07;1 µA
14;5533;675,514210294491;-0,0263153076171875;-3,9459228515625E-07;1 µA
14;5545;676,978210290794;-0,05621337890625;-5,2001953125E-07;1 µA
14;5557;678,442210287098;-0,0887451171875;-6,53076171875E-07;1 µA
14;5569;679,906210283402;-0,11505126953125;-7,8521728515625E-07;1 µA
14;5581;681,370210279706;-0,145538330078125;-9,0789794921875E-07;1 µA
14;5593;682,834210276009;-0,17791748046875;-1,019287109375E-06;1 µA
14;5605;684,298210272313;-0,2041015625;-1,12396240234375E-06;1 µA
14;5617;685,762210268617;-0,2344970703125;-1,53411865234375E-06;1 µA
14;5629;687,226210264921;-0,252655029296875;-2,56591796875E-06;1 µA
14;5641;688,690210261224;-0,221710205078125;-1,8035888671875E-06;1 µA
14;5653;690,154210257528;-0,195587158203125;-1,121826171875E-06;1 µA
14;5665;691,618210253832;-0,16497802734375;-6,9427490234375E-07;1 µA
14;5677;693,082210250136;-0,139801025390625;-5,0872802734375E-07;1 µA
14;5689;694,546210246439;-0,10821533203125;-1,8084716796875E-07;1 µA
14;5701;696,010210242743;-0,079925537109375;1,24755859375E-07;1 µA
14;5713;697,474210239047;-0,052276611328125;1,2371826171875E-07;1 µA
14;5725;698,938210235351;-0,0221588134765625;6,201171875E-08;1 µA
15;5737;700,402210231654;0,0038299560546875;6,2469482421875E-08;1 µA
15;5749;701,866210227958;0,034088134765625;1,0223388671875E-07;1 µA
15;5761;703,330210224262;0,06134033203125;1,29852294921875E-07;1 µA
15;5773;704,794210220566;0,08856201171875;1,1676025390625E-07;1 µA
15;5785;706,258210216869;0,119842529296875;9,185791015625E-08;1 µA
15;5797;707,722210213173;0,145721435546875;7,403564453125E-08;1 µA
15;5809;709,186210209477;0,176544189453125;6,8634033203125E-08;1 µA
15;5821;710,650210205781;0,203948974609375;7,99560546875E-08;1 µA
15;5833;712,114210202084;0,233795166015625;1,053466796875E-07;1 µA
15;5845;713,578210198388;0,21649169921875;4,5440673828125E-08;1 µA
15;5857;715,042210194692;0,184356689453125;1,52587890625E-09;1 µA
15;5869;716,506210190996;0,156036376953125;-3,2012939453125E-08;1 µA
15;5881;717,970210187299;0,1268310546875;-6,268310546875E-08;1 µA
15;5893;719,434210183603;0,096038818359375;-9,6771240234375E-08;1 µA
15;5905;720,898210179907;0,06494140625;-1,38519287109375E-07;1 µA
15;5917;722,362210176211;0,0372802734375;-1,93450927734375E-07;1 µA
15;5929;723,826210172514;0,00563659667968749;-2,68646240234375E-07;1 µA
15;5941;725,290210168818;-0,0213348388671875;-3,7109375E-07;1 µA
15;5953;726,754210165122;-0,053558349609375;-4,9285888671875E-07;1 µA
15;5965;728,218210161426;-0,083648681640625;-6,2255859375E-07;1 µA
15;5977;729,68221015773;-0,1104736328125;-7,537841796875E-07;1 µA
15;5989;731,146210154033;-0,141693115234375;-8,75244140625E-07;1 µA
15;6001;732,610210150337;-0,169647216796875;-9,8724365234375E-07;1 µA
15;6013;734,074210146641;-0,2027587890625;-1,09039306640625E-06;1 µA
15;6025;735,538210142945;-0,229461669921875;-1,34124755859375E-06;1 µA
15;6037;737,002210139248;-0,2584228515625;-2,681884765625E-06;1 µA
15;6049;738,466210135552;-0,228240966796875;-1,9378662109375E-06;1 µA
15;6061;739,930210131856;-0,19915771484375;-1,22283935546875E-06;1 µA
15;6073;741,39421012816;-0,17144775390625;-7,305908203125E-07;1 µA
15;6085;742,858210124463;-0,143096923828125;-5,31005859375E-07;1 µA
15;6097;744,322210120767;-0,114166259765625;-2,29461669921875E-07;1 µA
15;6109;745,786210117071;-0,084228515625;1,0595703125E-07;1 µA
15;6121;747,250210113375;-0,0584716796875;1,4215087890625E-07;1 µA
15;6133;748,714210109678;-0,030438232421875;7,5164794921875E-08;1 µA
15;6145;750,178210105982;-0,001708984375;6,243896484375E-08;1 µA
16;6157;751,642210102286;0,0283111572265625;9,7412109375E-08;1 µA
16;6169;753,10621009859;0,0552978515625;1,3006591796875E-07;1 µA
16;6181;754,570210094893;0,084228515625;1,27044677734375E-07;1 µA
16;6193;756,034210091197;0,11566162109375;1,07757568359375E-07;1 µA
16;6205;757,498210087501;0,140960693359375;8,5205078125E-08;1 µA
16;6217;758,962210083805;0,172637939453125;7,51953125E-08;1 µA
16;6229;760,426210080108;0,198455810546875;8,3343505859375E-08;1 µA
16;6241;761,890210076412;0,228759765625;1,0601806640625E-07;1 µA
16;6253;763,354210072716;0,220489501953125;5,7891845703125E-08;1 µA
16;6265;764,81821006902;0,190032958984375;1,0833740234375E-08;1 µA
16;6277;766,282210065323;0,161376953125;-2,410888671875E-08;1 µA
16;6289;767,746210061627;0,13177490234375;-5,5511474609375E-08;1 µA
16;6301;769,210210057931;0,099639892578125;-8,85009765625E-08;1 µA
16;6313;770,674210054235;0,06964111328125;-1,29364013671875E-07;1 µA
16;6325;772,138210050538;0,040216064453125;-1,822509765625E-07;1 µA
16;6337;773,602210046842;0,0116973876953125;-2,53631591796875E-07;1 µA
16;6349;775,066210043146;-0,0191009521484375;-3,50341796875E-07;1 µA
16;6361;776,53021003945;-0,0476409912109375;-4,6844482421875E-07;1 µA
16;6373;777,994210035753;-0,0784912109375;-5,9478759765625E-07;1 µA
16;6385;779,458210032057;-0,10577392578125;-7,23876953125E-07;1 µA
16;6397;780,922210028361;-0,135833740234375;-8,4442138671875E-07;1 µA
16;6409;782,386210024665;-0,16619873046875;-9,5489501953125E-07;1 µA
16;6421;783,850210020968;-0,195770263671875;-1,0614013671875E-06;1 µA
16;6433;785,314210017272;-0,224761962890625;-1,2274169921875E-06;1 µA
16;6445;786,778210013576;-0,255340576171875;-2,61199951171875E-06;1 µA
16;6457;788,24221000988;-0,2325439453125;-2,04620361328125E-06;1 µA
16;6469;789,706210006183;-0,2052001953125;-1,3067626953125E-06;1 µA
16;6481;791,170210002487;-0,17584228515625;-7,6904296875E-07;1 µA
16;6493;792,634209998791;-0,1456298828125;-5,438232421875E-07;1 µA
16;6505;794,098209995095;-0,11712646484375;-2,7398681640625E-07;1 µA
16;6517;795,562209991399;-0,08880615234375;7,647705078125E-08;1 µA
16;6529;797,026209987702;-0,06011962890625;1,54266357421875E-07;1 µA
16;6541;798,490209984006;-0,0316925048828125;8,4869384765625E-08;1 µA
16;6553;799,95420998031;-0,005908203125;6,2896728515625E-08;1 µA
17;6565;801,418209976614;0,0240142822265625;9,1949462890625E-08;1 µA
17;6577;802,882209972917;0,050933837890625;1,28082275390625E-07;1 µA
17;6589;804,346209969221;0,081939697265625;1,33056640625E-07;1 µA
17;6601;805,810209965525;0,108367919921875;1,16424560546875E-07;1 µA
17;6613;807,274209961829;0,13885498046875;9,41162109375E-08;1 µA
17;6625;808,738209958132;0,16497802734375;8,1268310546875E-08;1 µA
17;6637;810,202209954436;0,1944580078125;8,3953857421875E-08;1 µA
17;6649;811,66620995074;0,225341796875;1,04278564453125E-07;1 µA
17;6661;813,130209947044;0,227081298828125;7,110595703125E-08;1 µA
17;6673;814,594209943347;0,19403076171875;2,03857421875E-08;1 µA
17;6685;816,058209939651;0,167633056640625;-1,6082763671875E-08;1 µA
17;6697;817,522209935955;0,136566162109375;-4,754638671875E-08;1 µA
17;6709;818,986209932259;0,1048583984375;-8,0322265625E-08;1 µA
17;6721;820,450209928562;0,076080322265625;-1,19476318359375E-07;1 µA
17;6733;821,914209924866;0,0477325439453125;-1,7071533203125E-07;1 µA
17;6745;823,37820992117;0,0171356201171875;-2,3809814453125E-07;1 µA
17;6757;824,842209917474;-0,0143951416015625;-3,28369140625E-07;1 µA
17;6769;826,306209913777;-0,04212646484375;-4,4281005859375E-07;1 µA
17;6781;827,770209910081;-0,074249267578125;-5,6671142578125E-07;1 µA
17;6793;829,234209906385;-0,103271484375;-6,927490234375E-07;1 µA
17;6805;830,698209902689;-0,130859375;-8,1298828125E-07;1 µA
17;6817;832,162209898992;-0,162017822265625;-9,2254638671875E-07;1 µA
17;6829;833,626209895296;-0,19024658203125;-1,02630615234375E-06;1 µA
17;6841;835,0902098916;-0,22308349609375;-1,14837646484375E-06;1 µA
17;6853;836,554209887904;-0,251800537109375;-2,34588623046875E-06;1 µA
17;6865;838,018209884207;-0,23602294921875;-2,158203125E-06;1 µA
17;6877;839,482209880511;-0,2093505859375;-1,4019775390625E-06;1 µA
17;6889;840,946209876815;-0,178955078125;-8,1787109375E-07;1 µA
17;6901;842,410209873119;-0,15008544921875;-5,6060791015625E-07;1 µA
17;6913;843,874209869422;-0,122955322265625;-3,2257080078125E-07;1 µA
17;6925;845,338209865726;-0,096405029296875;3,472900390625E-08;1 µA
17;6937;846,80220986203;-0,067901611328125;1,55853271484375E-07;1 µA
17;6949;848,266209858334;-0,0364013671875;8,990478515625E-08;1 µA
17;6961;849,730209854637;-0,00885925292968751;6,1248779296875E-08;1 µA
18;6973;851,194209850941;0,0181304931640625;8,258056640625E-08;1 µA
18;6985;852,658209847245;0,047369384765625;1,162109375E-07;1 µA
18;6997;854,122209843549;0,07794189453125;1,300048828125E-07;1 µA
18;7009;855,586209839852;0,103851318359375;1,187744140625E-07;1 µA
18;7021;857,050209836156;0,134033203125;9,9212646484375E-08;1 µA
18;7033;858,51420983246;0,16070556640625;8,4197998046875E-08;1 µA
18;7045;859,978209828764;0,19110107421875;8,6700439453125E-08;1 µA
18;7057;861,442209825067;0,220306396484375;1,044921875E-07;1 µA
18;7069;862,906209821371;0,23028564453125;8,3404541015625E-08;1 µA
18;7081;864,370209817675;0,202056884765625;2,9876708984375E-08;1 µA
18;7093;865,834209813979;0,1719970703125;-8,697509765625E-09;1 µA
18;7105;867,298209810283;0,141693115234375;-4,0924072265625E-08;1 µA
18;7117;868,762209806586;0,111724853515625;-7,354736328125E-08;1 µA
18;7129;870,22620980289;0,08050537109375;-1,12213134765625E-07;1 µA
18;7141;871,690209799194;0,049835205078125;-1,60675048828125E-07;1 µA
18;7153;873,154209795498;0,0210723876953125;-2,25555419921875E-07;1 µA
18;7165;874,618209791801;-0,008941650390625;-3,11676025390625E-07;1 µA
18;7177;876,082209788105;-0,0390411376953125;-4,21142578125E-07;1 µA
18;7189;877,546209784409;-0,06610107421875;-5,419921875E-07;1 µA
18;7201;879,010209780713;-0,09564208984375;-6,646728515625E-07;1 µA
18;7213;880,474209777016;-0,126190185546875;-7,8338623046875E-07;1 µA
18;7225;881,93820977332;-0,1578369140625;-8,929443359375E-07;1 µA
18;7237;883,402209769624;-0,186065673828125;-9,9609375E-07;1 µA
18;7249;884,866209765928;-0,2181396484375;-1,10504150390625E-06;1 µA
18;7261;886,330209762231;-0,2445068359375;-2,0928955078125E-06;1 µA
18;7273;887,794209758535;-0,2435302734375;-2,2802734375E-06;1 µA
18;7285;889,258209754839;-0,212158203125;-1,51092529296875E-06;1 µA
18;7297;890,722209751143;-0,184906005859375;-8,8470458984375E-07;1 µA
18;7309;892,186209747446;-0,157745361328125;-5,77392578125E-07;1 µA
18;7321;893,65020974375;-0,128570556640625;-3,7109375E-07;1 µA
18;7333;895,114209740054;-0,098358154296875;-1,2176513671875E-08;1 µA
18;7345;896,578209736358;-0,072662353515625;1,60491943359375E-07;1 µA
18;7357;898,042209732661;-0,04072265625;1,00311279296875E-07;1 µA
18;7369;899,506209728965;-0,012969970703125;6,1492919921875E-08;1 µA
19;7381;900,970209725269;0,014398193359375;7,696533203125E-08;1 µA
19;7393;902,434209721573;0,0424285888671875;1,10382080078125E-07;1 µA
19;7405;903,898209717876;0,07000732421875;1,30645751953125E-07;1 µA
19;7417;905,36220971418;0,100372314453125;1,2164306640625E-07;1 µA
19;7429;906,826209710484;0,128448486328125;1,06658935546875E-07;1 µA
19;7441;908,290209706788;0,155548095703125;9,2010498046875E-08;1 µA
19;7453;909,754209703091;0,1873779296875;9,09423828125E-08;1 µA
19;7465;911,218209699395;0,21600341796875;1,051025390625E-07;1 µA
19;7477;912,682209695699;0,23651123046875;1,00341796875E-07;1 µA
19;7489;914,146209692003;0,20684814453125;4,18701171875E-08;1 µA
19;7501;915,610209688306;0,174713134765625;-6,103515625E-11;1 µA
19;7513;917,07420968461;0,145050048828125;-3,369140625E-08;1 µA
19;7525;918,538209680914;0,117095947265625;-6,6741943359375E-08;1 µA
19;7537;920,002209677218;0,08538818359375;-1,0430908203125E-07;1 µA
19;7549;921,466209673521;0,054840087890625;-1,510009765625E-07;1 µA
19;7561;922,930209669825;0,0277374267578125;-2,132568359375E-07;1 µA
19;7573;924,394209666129;-0,00147399902343751;-2,955322265625E-07;1 µA
19;7585;925,858209662433;-0,0326873779296875;-4,010009765625E-07;1 µA
19;7597;927,322209658736;-0,063262939453125;-5,181884765625E-07;1 µA
19;7609;928,78620965504;-0,09375;-6,38427734375E-07;1 µA
19;7621;930,250209651344;-0,1204833984375;-7,562255859375E-07;1 µA
19;7633;931,714209647648;-0,15081787109375;-8,6395263671875E-07;1 µA
19;7645;933,178209643952;-0,18115234375;-9,649658203125E-07;1 µA
19;7657;934,642209640255;-0,211822509765625;-1,0675048828125E-06;1 µA
19;7669;936,106209636559;-0,24237060546875;-1,8310546875E-06;1 µA
19;7681;937,570209632863;-0,247802734375;-2,386474609375E-06;1 µA
19;7693;939,034209629167;-0,21722412109375;-1,614990234375E-06;1 µA
19;7705;940,49820962547;-0,19146728515625;-9,5367431640625E-07;1 µA
19;7717;941,962209621774;-0,162017822265625;-5,950927734375E-07;1 µA
19;7729;943,426209618078;-0,1343994140625;-4,06494140625E-07;1 µA
19;7741;944,890209614382;-0,102813720703125;-5,7769775390625E-08;1 µA
19;7753;946,354209610685;-0,074737548828125;1,53289794921875E-07;1 µA
19;7765;947,818209606989;-0,048626708984375;1,043701171875E-07;1 µA
19;7777;949,282209603293;-0,016717529296875;5,7769775390625E-08;1 µA
20;7789;950,746209599597;0,0087890625;6,7962646484375E-08;1 µA
20;7801;952,2102095959;0,0372344970703125;1,01715087890625E-07;1 µA
20;7813;953,674209592204;0,066864013671875;1,24298095703125E-07;1 µA
20;7825;955,138209588508;0,094268798828125;1,22467041015625E-07;1 µA
20;7837;956,602209584812;0,123077392578125;1,099853515625E-07;1 µA
20;7849;958,066209581115;0,1519775390625;9,7259521484375E-08;1 µA
20;7861;959,530209577419;0,182830810546875;9,320068359375E-08;1 µA
20;7873;960,994209573723;0,208404541015625;1,0614013671875E-07;1 µA
20;7885;962,458209570027;0,23956298828125;1,1578369140625E-07;1 µA
20;7897;963,92220956633;0,2073974609375;5,0567626953125E-08;1 µA
20;7909;965,386209562634;0,17999267578125;7,2021484375E-09;1 µA
20;7921;966,850209558938;0,148590087890625;-2,728271484375E-08;1 µA
20;7933;968,314209555242;0,117218017578125;-6,1126708984375E-08;1 µA
20;7945;969,778209551545;0,0875244140625;-9,8114013671875E-08;1 µA
20;7957;971,242209547849;0,058502197265625;-1,45416259765625E-07;1 µA
20;7969;972,706209544153;0,028253173828125;-2,0611572265625E-07;1 µA
20;7981;974,170209540457;-0,000280761718749994;-2,8631591796875E-07;1 µA
20;7993;975,63420953676;-0,030474853515625;-3,8848876953125E-07;1 µA
20;8005;977,098209533064;-0,061431884765625;-5,0262451171875E-07;1 µA
20;8017;978,562209529368;-0,090972900390625;-6,1920166015625E-07;1 µA
20;8029;980,026209525672;-0,121002197265625;-7,342529296875E-07;1 µA
20;8041;981,490209521975;-0,149932861328125;-8,4197998046875E-07;1 µA
20;8053;982,954209518279;-0,179351806640625;-9,4329833984375E-07;1 µA
20;8065;984,418209514583;-0,208831787109375;-1,04583740234375E-06;1 µA
20;8077;985,882209510887;-0,238739013671875;-1,66229248046875E-06;1 µA
20;8089;987,34620950719;-0,25048828125;-2,4072265625E-06;1 µA
20;8101;988,810209503494;-0,219818115234375;-1,65374755859375E-06;1 µA
20;8113;990,274209499798;-0,1915283203125;-9,8052978515625E-07;1 µA
20;8125;991,738209496102;-0,1650390625;-5,9783935546875E-07;1 µA
20;8137;993,202209492405;-0,13299560546875;-4,1748046875E-07;1 µA
20;8149;994,666209488709;-0,107879638671875;-8,1268310546875E-08;1 µA
20;8161;996,130209485013;-0,075897216796875;1,375732421875E-07;1 µA
20;8173;997,594209481317;-0,0502166748046875;9,5733642578125E-08;1 µA
20;8185;999,05820947762;-0,02001953125;5,2337646484375E-08;1 µA
21;8197;1000,52220947392;0,0068634033203125;6,0272216796875E-08;1 µA
21;8209;1001,98620947023;0,03536376953125;9,0423583984375E-08;1 µA
21;8221;1003,45020946653;0,066864013671875;1,15203857421875E-07;1 µA
21;8233;1004,91420946284;0,09423828125;1,1767578125E-07;1 µA
21;8245;1006,37820945914;0,12200927734375;1,10260009765625E-07;1 µA
21;8257;1007,84220945544;0,149139404296875;9,8785400390625E-08;1 µA
21;8269;1009,30620945175;0,17999267578125;9,6710205078125E-08;1 µA
21;8281;1010,77020944805;0,20697021484375;1,0809326171875E-07;1 µA
21;8293;1012,23420944435;0,23486328125;1,33514404296875E-07;1 µA